{
    "id": "uri:ngsi-ld:medadmin0301",
    "type": "MedicationAdministration",
    "resourceType": {
        "type": "Text",
        "value": "MedicationAdministration"
    },
    "text": {
        "type": "StructuredValue",
        "value": {
            "status": "generated",
            "div": "<div xmlns=\"http://www.w3.org/1999/xhtml\"><p><b>Generated Narrative</b></p><div style=\"display: inline-block; background-color: #d9e0e7; padding: 6px; margin: 4px; border: 1px solid #8da1b4; border-radius: 5px; line-height: 60%\"><p style=\"margin-bottom: 0px\">Resource &quot;medadmin0301&quot; </p></div><p><b>status</b>: in-progress</p><p><b>medication</b>: <a name=\"med0301\"> </a></p><blockquote><div style=\"display: inline-block; background-color: #d9e0e7; padding: 6px; margin: 4px; border: 1px solid #8da1b4; border-radius: 5px; line-height: 60%\"><p style=\"margin-bottom: 0px\">Resource &quot;med0301&quot; </p></div><p><b>code</b>: Vancomycin Hydrochloride (VANCOMYCIN HYDROCHLORIDE) <span style=\"background: LightGoldenRodYellow; margin: 4px; border: 1px solid khaki\"> (<a href=\"http://terminology.hl7.org/3.1.0/CodeSystem-v3-ndc.html\">National drug codes</a>#0409-6531-02)</span></p></blockquote><p><b>subject</b>: <a href=\"patient-pat1.html\">Patient/pat1: Donald Duck</a> &quot;Duck DONALD&quot;</p><p><b>context</b>: <a href=\"encounter-f001.html\">Encounter/f001: encounter who leads to this prescription</a></p><p><b>effective</b>: 2015-01-15T14:30:00+01:00 --&gt; (ongoing)</p><h3>Performers</h3><table class=\"grid\"><tr><td>-</td><td><b>Actor</b></td></tr><tr><td>*</td><td><a href=\"practitioner-f007.html\">Practitioner/f007: Patrick Pump</a> &quot;Simone HEPS&quot;</td></tr></table><p><b>reasonCode</b>: Given as Ordered <span style=\"background: LightGoldenRodYellow; margin: 4px; border: 1px solid khaki\"> (<a href=\"codesystem-reason-medication-given-codes.html\">Reason Medication Given Codes</a>#b)</span></p><p><b>request</b>: <a href=\"medicationrequest-medrx0318.html\">MedicationRequest/medrx0318</a></p><h3>Dosages</h3><table class=\"grid\"><tr><td>-</td><td><b>Text</b></td><td><b>Route</b></td><td><b>Method</b></td><td><b>Dose</b></td></tr><tr><td>*</td><td>500mg IV q6h x 3 days</td><td>Intravenous route (qualifier value) <span style=\"background: LightGoldenRodYellow; margin: 4px; border: 1px solid khaki\"> (<a href=\"https://browser.ihtsdotools.org/\">SNOMED CT</a>#47625008)</span></td><td>IV Push <span style=\"background: LightGoldenRodYellow; margin: 4px; border: 1px solid khaki\"> ()</span></td><td>500 mg<span style=\"background: LightGoldenRodYellow\"> (Details: UCUM code mg = 'mg')</span></td></tr></table><p><b>eventHistory</b>: <a name=\"signature\"> </a></p><blockquote><div style=\"display: inline-block; background-color: #d9e0e7; padding: 6px; margin: 4px; border: 1px solid #8da1b4; border-radius: 5px; line-height: 60%\"><p style=\"margin-bottom: 0px\">Resource &quot;signature&quot; </p></div><p><b>target</b>: <a href=\"servicerequest-physiotherapy.html\">ServiceRequest/physiotherapy</a></p><p><b>recorded</b>: 02/02/2017 4:23:07 AM</p><h3>Agents</h3><table class=\"grid\"><tr><td>-</td><td><b>Role</b></td><td><b>Who</b></td></tr><tr><td>*</td><td>author (originator) <span style=\"background: LightGoldenRodYellow; margin: 4px; border: 1px solid khaki\"> (<a href=\"http://terminology.hl7.org/3.1.0/CodeSystem-v3-ParticipationType.html\">ParticipationType</a>#AUT)</span></td><td><a href=\"practitioner-example.html\">Practitioner/example: Dr Adam Careful</a> &quot;Adam CAREFUL&quot;</td></tr></table></blockquote></div>"
        }
    },
    "contained": {
        "type": "array",
        "value": [
            {
                "resourceType": "Medication",
                "id": "med0301",
                "code": {
                    "coding": [
                        {
                            "system": "http://hl7.org/fhir/sid/ndc",
                            "code": "0409-6531-02",
                            "display": "Vancomycin Hydrochloride (VANCOMYCIN HYDROCHLORIDE)"
                        }
                    ]
                }
            },
            {
                "resourceType": "Provenance",
                "id": "signature",
                "target": [
                    {
                        "reference": "ServiceRequest/physiotherapy"
                    }
                ],
                "recorded": "2017-02-01T17:23:07Z",
                "agent": [
                    {
                        "role": [
                            {
                                "coding": [
                                    {
                                        "system": "http://terminology.hl7.org/CodeSystem/v3-ParticipationType",
                                        "code": "AUT"
                                    }
                                ]
                            }
                        ],
                        "who": {
                            "reference": "Practitioner/example",
                            "display": "Dr Adam Careful"
                        }
                    }
                ],
                "signature": [
                    {
                        "type": [
                            {
                                "system": "urn:iso-astm:E1762-95:2013",
                                "code": "1.2.840.10065.1.12.1.1",
                                "display": "Author's Signature"
                            }
                        ],
                        "when": "2017-02-01T17:23:07Z",
                        "who": {
                            "reference": "Practitioner/example",
                            "display": "Dr Adam Careful"
                        },
                        "targetFormat": "application/fhir+xml",
                        "sigFormat": "application/signature+xml",
                        "data": "dGhpcyBibG9iIGlzIHNuaXBwZWQ="
                    }
                ]
            }
        ]
    },
    "status": {
        "type": "Text",
        "value": "in-progress"
    },
    "medicationReference": {
        "type": "StructuredValue",
        "value": {
            "reference": "#med0301"
        }
    },
    "subject": {
        "type": "StructuredValue",
        "value": {
            "reference": "Patient/pat1",
            "display": "Donald Duck"
        }
    },
    "context": {
        "type": "StructuredValue",
        "value": {
            "reference": "Encounter/f001",
            "display": "encounter who leads to this prescription"
        }
    },
    "effectivePeriod": {
        "type": "StructuredValue",
        "value": {
            "start": "2015-01-15T14:30:00+01:00"
        }
    },
    "performer": {
        "type": "array",
        "value": [
            {
                "actor": {
                    "reference": "Practitioner/f007",
                    "display": "Patrick Pump"
                }
            }
        ]
    },
    "reasonCode": {
        "type": "array",
        "value": [
            {
                "coding": [
                    {
                        "system": "http://terminology.hl7.org/CodeSystem/reason-medication-given",
                        "code": "b",
                        "display": "Given as Ordered"
                    }
                ]
            }
        ]
    },
    "request": {
        "type": "StructuredValue",
        "value": {
            "reference": "MedicationRequest/medrx0318"
        }
    },
    "dosage": {
        "type": "StructuredValue",
        "value": {
            "text": "500mg IV q6h x 3 days",
            "route": {
                "coding": [
                    {
                        "system": "http://snomed.info/sct",
                        "code": "47625008",
                        "display": "Intravenous route (qualifier value)"
                    }
                ]
            },
            "method": {
                "text": "IV Push"
            },
            "dose": {
                "value": 500,
                "unit": "mg",
                "system": "http://unitsofmeasure.org",
                "code": "mg"
            }
        }
    },
    "eventHistory": {
        "type": "array",
        "value": [
            {
                "reference": "#signature",
                "display": "Author's Signature"
            }
        ]
    },
    "meta": {
        "type": "StructuredValue",
        "value": {
            "tag": [
                {
                    "system": "http://terminology.hl7.org/CodeSystem/v3-ActReason",
                    "code": "HTEST",
                    "display": "test health data"
                }
            ]
        }
    }

}